File: genXPS/data/experimental_data/poly(bisphenol A carbonate) (PBAC)/PBAC.csv
Binding Energy,CPS
700,0
699.8,0
699.6,0
699.4,0
699.2,0
699,0
698.8,0
698.6,0
698.4,0
698.2,0
698,0
697.8,0
697.6,0
697.4,0
697.2,0
697,0
696.8,0
696.6,0
696.4,0
696.2,0
696,0
695.8,0
695.6,0
695.4,0
695.2,0
695,0
694.8,0
694.6,0
694.4,0
694.2,0
694,0
693.8,0
693.6,0
693.4,0
693.2,0
693,0
692.8,0
692.6,0
692.4,0
692.2,0
692,0
691.8,0
691.6,0
691.4,0
691.2,0
691,0
690.8,0
690.6,0
690.4,0
690.2,0
690,0
689.8,0
689.6,0
689.4,0
689.2,0
689,0
688.8,0
688.6,0
688.4,0
688.2,0
688,0
687.8,0
687.6,0
687.4,0
687.2,0
687,0
686.8,0
686.6,0
686.4,0
686.2,0
686,0
685.8,0
685.6,0
685.4,0
685.2,0
685,0
684.8,0
684.6,0
684.4,0
684.2,0
684,0
683.8,0
683.6,0
683.4,0
683.2,0
683,0
682.8,0
682.6,0
682.4,0
682.2,0
682,0
539.9,0
539.7,0
539.5,0
539.3,0
539.1,0
538.9,0
538.7,0
538.5,0
538.3,0
538.1,0
537.9,0
537.7,0
537.5,0
537.3,0
537.1,0
536.9,0.000166927
536.7,-5.52E-05
536.5,0.001447675
536.3,0.001170993
536.1,0.005957488
535.9,0.008798587
535.7,0.0144249
535.5,0.0225029
535.3,0.0384329
535.1,0.0695674
534.9,0.110904
534.7,0.176809
534.5,0.257944
534.3,0.319475
534.1,0.363341
533.9,0.359472
533.7,0.314747
533.5,0.252352
533.3,0.193986
533.1,0.158967
532.9,0.154764
532.7,0.171208
532.5,0.182043
532.3,0.17997
532.1,0.163757
531.9,0.120651
531.7,0.0808076
531.5,0.0425551
531.3,0.0223166
531.1,0.0131999
530.9,0.003744035
530.7,0.001129818
530.5,-0.002597246
530.3,0.00090864
530.1,0
529.9,0
529.7,0
529.5,0
529.3,0
529.1,0
528.9,0
528.7,0
528.5,0
528.3,0
528.1,0
527.9,0
527.7,0
527.5,0
527.3,0
527.1,0
526.9,0
526.7,0
526.5,0
526.3,0
526.1,0
525.9,0
525.7,0
525.5,0
525.3,0
525.1,0
524.9,0
524.7,0
524.5,0
524.3,0
524.1,0
523.9,0
523.7,0
523.5,0
523.3,0
523.1,0
522.9,0
522.7,0
522.5,0
522.3,0
522.1,0
521.9,0
521.7,0
521.5,0
521.3,0
521.1,0
520.9,0
520.7,0
520.5,0
520.3,0
520.1,0
410,0
409.8,0
409.6,0
409.4,0
409.2,0
409,0
408.8,0
408.6,0
408.4,0
408.2,0
408,0
407.8,0
407.6,0
407.4,0
407.2,0
407,0
406.8,0
406.6,0
406.4,0
406.2,0
406,0
405.8,0
405.6,0
405.4,0
405.2,0
405,0
404.8,0
404.6,0
404.4,0
404.2,0
404,0
403.8,0
403.6,0
403.4,0
403.2,0
403,0
402.8,0
402.6,0
402.4,0
402.2,0
402,0
401.8,0
401.6,0
401.4,0
401.2,0
401,0
400.8,0
400.6,0
400.4,0
400.2,0
400,0
399.8,0
399.6,0
399.4,0
399.2,0
399,0
398.8,0
398.6,0
398.4,0
398.2,0
398,0
397.8,0
397.6,0
397.4,0
397.2,0
397,0
396.8,0
396.6,0
396.4,0
396.2,0
396,0
395.8,0
395.6,0
395.4,0
395.2,0
395,0
394.8,0
394.6,0
394.4,0
394.2,0
394,0
393.8,0
393.6,0
393.4,0
393.2,0
393,0
392.8,0
392.6,0
392.4,0
392.2,0
392,0
299.9,0
299.7,0
299.5,0
299.3,0
299.1,0
298.9,0
298.7,0
298.5,0
298.3,0
298.1,0
297.9,0
297.7,0
297.5,0
297.3,0
297.1,0
296.9,0
296.7,0
296.5,0
296.3,0
296.1,0
295.9,0
295.7,0
295.5,0
295.3,0
295.1,0
294.9,0
294.7,0
294.5,0
294.3,0
294.1,0
293.9,-0.000103077
293.7,0.002739412
293.5,0.00268224
293.3,0.007618552
293.1,0.009827136
292.9,0.0116607
292.7,0.0148957
292.5,0.0214339
292.3,0.0219217
292.1,0.025686
291.9,0.0288017
291.7,0.0406366
291.5,0.0481116
291.3,0.0539671
291.1,0.0596259
290.9,0.07550654
290.7,0.100907
290.5,0.108982
290.3,0.104629
290.1,0.0782803
289.9,0.047868
289.7,0.0267875
289.5,0.0131856
289.3,0.007800502
289.1,0.003490862
288.9,0.002731205
288.7,0.001735068
288.5,-2.74E-05
288.3,0.000606223
288.1,-0.000166927
287.9,7.46999E-05
287.7,0.000576038
287.5,0.003972586
287.3,0.0126607
287.1,0.0292634
286.9,0.0541215
286.7,0.0961515
286.5,0.143124
286.3,0.174551
286.1,0.170825
285.9,0.160019
285.7,0.167962
285.5,0.236875
285.3,0.378012
285.1,0.586932
284.9,0.809412
284.7,0.965864
284.5,0.957396
284.3,0
284.1,0
283.9,0
283.7,0
283.5,0
283.3,0
283.1,0
282.9,0
282.7,0
282.5,0
282.3,0
282.1,0
281.9,0
281.7,0
281.5,0
281.3,0
281.1,0
280.9,0
280.7,0
280.5,0
280.3,0
280.1,0
279.9,0
279.7,0
279.5,0
279.3,0
279.1,0
278.9,0
278.7,0
278.5,0
278.3,0
278.1,0
277.9,0
277.7,0
277.5,0
277.3,0
277.1,0
276.9,0
276.7,0
276.5,0
276.3,0
276.1,0
275.9,0
275.7,0
275.5,0
275.3,0
275.1,0
210,0
209.8,0
209.6,0
209.4,0
209.2,0
209,0
208.8,0
208.6,0
208.4,0
208.2,0
208,0
207.8,0
207.6,0
207.4,0
207.2,0
207,0
206.8,0
206.6,0
206.4,0
206.2,0
206,0
205.8,0
205.6,0
205.4,0
205.2,0
205,0
204.8,0
204.6,0
204.4,0
204.2,0
204,0
203.8,0
203.6,0
203.4,0
203.2,0
203,0
202.8,0
202.6,0
202.4,0
202.2,0
202,0
201.8,0
201.6,0
201.4,0
201.2,0
201,0
200.8,0
200.6,0
200.4,0
200.2,0
200,0
199.8,0
199.6,0
199.4,0
199.2,0
199,0
198.8,0
198.6,0
198.4,0
198.2,0
198,0
197.8,0
197.6,0
197.4,0
197.2,0
197,0
196.8,0
196.6,0
196.4,0
196.2,0
196,0
89.9,0
89.7,0
89.5,0
89.3,0
89.1,0
88.9,0
88.7,0
88.5,0
88.3,0
88.1,0
87.9,0
87.7,0
87.5,0
87.3,0
87.1,0
86.9,0
86.7,0
86.5,0
86.3,0
86.1,0
85.9,0
85.7,0
85.5,0
85.3,0
85.1,0
84.9,0
84.7,0
84.5,0
84.3,0
84.1,0
83.9,0
83.7,0
83.5,0
83.3,0
83.1,0
82.9,0
82.7,0
82.5,0
82.3,0
82.1,0
81.9,0
81.7,0
81.5,0
81.3,0
81.1,0
80.9,0
80.7,0
80.5,0
80.3,0
80.1,0
79.9,0
79.7,0
79.5,0
79.3,0
79.1,0
78.9,0
78.7,0
78.5,0
78.3,0
78.1,0
77.9,0
77.7,0
77.5,0
77.3,0
77.1,0
76.9,0
76.7,0
76.5,0
76.3,0
76.1,0
75.9,0
75.7,0
75.5,0
75.3,0
75.1,0
74.9,0
74.7,0
74.5,0
74.3,0
74.1,0
73.9,0
73.7,0
73.5,0
73.3,0
73.1,0
72.9,0
72.7,0
72.5,0
72.3,0
72.1,0
71.9,0
71.7,0
71.5,0
71.3,0
71.1,0
70.9,0
70.7,0
70.5,0
70.3,0
70.1,0
69.9,0
69.7,0
69.5,0
69.3,0
69.1,0
68.9,0
68.7,0
68.5,0
68.3,0
68.1,0
67.9,0
67.7,0
67.5,0
67.3,0
67.1,0
66.9,0
66.7,0
66.5,0
66.3,0
66.1,0
65.9,0
65.7,0
65.5,0
65.3,0
65.1,0
64.9,0
64.7,0
64.5,0
64.3,0
64.1,0
63.9,0
63.7,0
63.5,0
63.3,0
63.1,0
62.9,0
62.7,0
62.5,0
62.3,0
62.1,0
61.9,0
61.7,0
61.5,0
61.3,0
61.1,0
60.9,0
60.7,0
60.5,0
60.3,0
60.1,0
30,0.001975902
29.8,0.002364383
29.6,0.002616165
29.4,0.002088369
29.2,0.002858431
29,0.00240215
28.8,0.002750861
28.6,0.002992599
28.4,0.002398965
28.2,0.003747527
28,0.003690382
27.8,0.00374882
27.6,0.0035292
27.4,0.00371716
27.2,0.004088392
27,0.004345626
26.8,0.004552449
26.6,0.004342469
26.4,0.003805993
26.2,0.004468457
26,0.003557578
25.8,0.003237968
25.6,0.002884736
25.4,0.002415769
25.2,0.002275091
25,0.002205093
24.8,0.001122835
24.6,0.001838813
24.4,0.001269119
24.2,0.000948841
24,0.00159062
23.8,0.001062213
23.6,0.000557995
23.4,0.000931189
23.2,0.000604387
23,0.000431145
22.8,0.000643448
22.6,0.000510101
22.4,0.000110381
22.2,0.000296894
22,0.000748348
21.8,0.000520437
21.6,0.000769965
21.4,0.001340452
21.2,0.001863755
21,0.00189842
20.8,0.001771667
20.6,0.002285955
20.4,0.002456095
20.2,0.003397189
20,0.003041634
19.8,0.003242308
19.6,0.003182284
19.4,0.002955458
19.2,0.003018111
19,0.003110881
18.8,0.002798755
18.6,0.002610392
18.4,0.002981651
18.2,0.003888677
18,0.004102177
17.8,0.004599411
17.6,0.004810296
17.4,0.006082503
17.2,0.005343836
17,0.00614172
16.8,0.005614898
16.6,0.004914778
16.4,0.004809266
16.2,0.005193268
16,0.004038411
15.8,0.004101259
15.6,0.003648372
15.4,0.003439755
15.2,0.002753754
15,0.002929681
14.8,0.002839388
14.6,0.003153545
14.4,0.003178027
14.2,0.004086542
14,0.004441679
13.8,0.004421968
13.6,0.004070878
13.4,0.004263763
13.2,0.003894395
13,0.003802849
12.8,0.003638384
12.6,0.003247858
12.4,0.003192035
12.2,0.00324637
12,0.003637327
11.8,0.003415105
11.6,0.003289757
11.4,0.003696586
11.2,0.004372307
11,0.003991365
10.8,0.003535056
10.6,0.003299328
10.4,0.002626751
10.2,0.002884653
10,0.003228634
9.8,0.003563531
9.6,0.003928996
9.4,0.00360071
9.2,0.00392689
9,0.003403188
8.8,0.002984816
8.6,0.003288957
8.4,0.002700531
8.2,0.002440193
8,0.002443857
7.8,0.001968805
7.6,0.001965437
7.4,0.001599412
7.2,0.001832215
7,0.001953431
6.8,0.002103015
6.6,0.001944248
6.4,0.001842001
6.2,0.002483051
6,0.002525529
5.8,0.002347646
5.6,0.002655803
5.4,0.002437071
5.2,0.001599577
5,0.001468435
4.8,0.001108077
4.6,0.000575092
4.4,0.000496843
4.2,0.000447341
4,0.00066277
3.8,0.000727372
3.6,0.00096129
3.4,0.000959127
3.2,0.000789452
3,0.000632197
2.8,0.000513397
2.6,0.000309065
2.4,0.000200396
2.2,-2.18827E-05
2,7.62982E-05
1.8,0.000104588
1.6,-7.53078E-05
1.4,-1.8974E-05
1.2,0
1,0
0.8,0
0.6,0
0.4,0
0.2,0
0,0
-0.2,0
-0.4,0
-0.6,0
-0.8,0
-1,0
-1.2,0
-1.4,0
-1.6,0
-1.8,0
-2,0
-2.2,0
-2.4,0
-2.6,0
-2.8,0
-3,0
-3.2,0
-3.4,0
-3.6,0
-3.8,0
-4,0
-4.2,0
-4.4,0
-4.6,0
-4.8,0
-5,0