File: genXPS/data/experimental_data/Ethylcellulose (ECEL)/ECEL.csv
Binding Energy,CPS
700,0
699.8,0
699.6,0
699.4,0
699.2,0
699,0
698.8,0
698.6,0
698.4,0
698.2,0
698,0
697.8,0
697.6,0
697.4,0
697.2,0
697,0
696.8,0
696.6,0
696.4,0
696.2,0
696,0
695.8,0
695.6,0
695.4,0
695.2,0
695,0
694.8,0
694.6,0
694.4,0
694.2,0
694,0
693.8,0
693.6,0
693.4,0
693.2,0
693,0
692.8,0
692.6,0
692.4,0
692.2,0
692,0
691.8,0
691.6,0
691.4,0
691.2,0
691,0
690.8,0
690.6,0
690.4,0
690.2,0
690,0
689.8,0
689.6,0
689.4,0
689.2,0
689,0
688.8,0
688.6,0
688.4,0
688.2,0
688,0
687.8,0
687.6,0
687.4,0
687.2,0
687,0
686.8,0
686.6,0
686.4,0
686.2,0
686,0
685.8,0
685.6,0
685.4,0
685.2,0
685,0
684.8,0
684.6,0
684.4,0
684.2,0
684,0
683.8,0
683.6,0
683.4,0
683.2,0
683,0
682.8,0
682.6,0
682.4,0
682.2,0
682,0
539.9,0
539.7,0
539.5,0
539.3,0
539.1,0
538.9,0
538.7,0
538.5,0
538.3,0
538.1,0
537.9,0
537.7,0
537.5,0
537.3,0
537.1,0
536.9,0
536.7,0
536.5,0
536.3,0
536.1,0
535.9,0
535.7,0
535.5,0
535.3,0.00078609
535.1,0.000894064
534.9,0.007917164
534.7,0.0167115
534.5,0.0274409
534.3,0.0491115
534.1,0.0987749
533.9,0.172319
533.7,0.292915
533.5,0.453461
533.3,0.655322
533.1,0.844166
532.9,0.987393
532.7,0.989402
532.5,0.848507
532.3,0.630289
532.1,0.406206
531.9,0.22445
531.7,0.114044
531.5,0.0588946
531.3,0.0311599
531.1,0.0170261
530.9,0.007815219
530.7,0.007015465
530.5,0.002462894
530.3,0.004231999
530.1,0.001017979
529.9,0
529.7,0
529.5,0
529.3,0
529.1,0
528.9,0
528.7,0
528.5,0
528.3,0
528.1,0
527.9,0
527.7,0
527.5,0
527.3,0
527.1,0
526.9,0
526.7,0
526.5,0
526.3,0
526.1,0
525.9,0
525.7,0
525.5,0
525.3,0
525.1,0
524.9,0
524.7,0
524.5,0
524.3,0
524.1,0
523.9,0
523.7,0
523.5,0
523.3,0
523.1,0
522.9,0
522.7,0
522.5,0
522.3,0
522.1,0
521.9,0
521.7,0
521.5,0
521.3,0
521.1,0
520.9,0
520.7,0
520.5,0
520.3,0
520.1,0
410,0
409.8,0
409.6,0
409.4,0
409.2,0
409,0
408.8,0
408.6,0
408.4,0
408.2,0
408,0
407.8,0
407.6,0
407.4,0
407.2,0
407,0
406.8,0
406.6,0
406.4,0
406.2,0
406,0
405.8,0
405.6,0
405.4,0
405.2,0
405,0
404.8,0
404.6,0
404.4,0
404.2,0
404,0
403.8,0
403.6,0
403.4,0
403.2,0
403,0
402.8,0
402.6,0
402.4,0
402.2,0
402,0
401.8,0
401.6,0
401.4,0
401.2,0
401,0
400.8,0
400.6,0
400.4,0
400.2,0
400,0
399.8,0
399.6,0
399.4,0
399.2,0
399,0
398.8,0
398.6,0
398.4,0
398.2,0
398,0
397.8,0
397.6,0
397.4,0
397.2,0
397,0
396.8,0
396.6,0
396.4,0
396.2,0
396,0
395.8,0
395.6,0
395.4,0
395.2,0
395,0
394.8,0
394.6,0
394.4,0
394.2,0
394,0
393.8,0
393.6,0
393.4,0
393.2,0
393,0
392.8,0
392.6,0
392.4,0
392.2,0
392,0
299.9,0
299.7,0
299.5,0
299.3,0
299.1,0
298.9,0
298.7,0
298.5,0
298.3,0
298.1,0
297.9,0
297.7,0
297.5,0
297.3,0
297.1,0
296.9,0
296.7,0
296.5,0
296.3,0
296.1,0
295.9,0
295.7,0
295.5,0
295.3,0
295.1,0
294.9,0
294.7,0
294.5,0
294.3,0
294.1,0
293.9,0
293.7,0
293.5,0
293.3,0
293.1,0
292.9,0
292.7,0
292.5,0
292.3,0
292.1,0
291.9,0
291.7,0
291.5,0
291.3,0
291.1,0
290.9,0
290.7,0
290.5,0
290.3,0
290.1,0.001161157
289.9,0.002126154
289.7,0.002073346
289.5,0.004646585
289.3,0.008292379
289.1,0.01049244
288.9,0.0149978
288.7,0.0280263
288.5,0.0454536
288.3,0.0726413
288.1,0.0930846
287.9,0.109194
287.7,0.121717
287.5,0.142389
287.3,0.201711
287.1,0.315987
286.9,0.46921
286.7,0.618572
286.5,0.668724
286.3,0.600929
286.1,0.464509
285.9,0.317536
285.7,0.229953
285.5,0.209284
285.3,0.21932
285.1,0.230539
284.9,0.215124
284.7,0.161598
284.5,0.107304
284.3,0.059316
284.1,0.0262656
283.9,0.0124997
283.7,0.004357012
283.5,0.002268207
283.3,0
283.1,0
282.9,0
282.7,0
282.5,0
282.3,0
282.1,0
281.9,0
281.7,0
281.5,0
281.3,0
281.1,0
280.9,0
280.7,0
280.5,0
280.3,0
280.1,0
279.9,0
279.7,0
279.5,0
279.3,0
279.1,0
278.9,0
278.7,0
278.5,0
278.3,0
278.1,0
277.9,0
277.7,0
277.5,0
277.3,0
277.1,0
276.9,0
276.7,0
276.5,0
276.3,0
276.1,0
275.9,0
275.7,0
275.5,0
275.3,0
275.1,0
210,0
209.8,0
209.6,0
209.4,0
209.2,0
209,0
208.8,0
208.6,0
208.4,0
208.2,0
208,0
207.8,0
207.6,0
207.4,0
207.2,0
207,0
206.8,0
206.6,0
206.4,0
206.2,0
206,0
205.8,0
205.6,0
205.4,0
205.2,0
205,0
204.8,0
204.6,0
204.4,0
204.2,0
204,0
203.8,0
203.6,0
203.4,0
203.2,0
203,0
202.8,0
202.6,0
202.4,0
202.2,0
202,0
201.8,0
201.6,0
201.4,0
201.2,0
201,0
200.8,0
200.6,0
200.4,0
200.2,0
200,0
199.8,0
199.6,0
199.4,0
199.2,0
199,0
198.8,0
198.6,0
198.4,0
198.2,0
198,0
197.8,0
197.6,0
197.4,0
197.2,0
197,0
196.8,0
196.6,0
196.4,0
196.2,0
196,0
89.9,0
89.7,0
89.5,0
89.3,0
89.1,0
88.9,0
88.7,0
88.5,0
88.3,0
88.1,0
87.9,0
87.7,0
87.5,0
87.3,0
87.1,0
86.9,0
86.7,0
86.5,0
86.3,0
86.1,0
85.9,0
85.7,0
85.5,0
85.3,0
85.1,0
84.9,0
84.7,0
84.5,0
84.3,0
84.1,0
83.9,0
83.7,0
83.5,0
83.3,0
83.1,0
82.9,0
82.7,0
82.5,0
82.3,0
82.1,0
81.9,0
81.7,0
81.5,0
81.3,0
81.1,0
80.9,0
80.7,0
80.5,0
80.3,0
80.1,0
79.9,0
79.7,0
79.5,0
79.3,0
79.1,0
78.9,0
78.7,0
78.5,0
78.3,0
78.1,0
77.9,0
77.7,0
77.5,0
77.3,0
77.1,0
76.9,0
76.7,0
76.5,0
76.3,0
76.1,0
75.9,0
75.7,0
75.5,0
75.3,0
75.1,0
74.9,0
74.7,0
74.5,0
74.3,0
74.1,0
73.9,0
73.7,0
73.5,0
73.3,0
73.1,0
72.9,0
72.7,0
72.5,0
72.3,0
72.1,0
71.9,0
71.7,0
71.5,0
71.3,0
71.1,0
70.9,0
70.7,0
70.5,0
70.3,0
70.1,0
69.9,0
69.7,0
69.5,0
69.3,0
69.1,0
68.9,0
68.7,0
68.5,0
68.3,0
68.1,0
67.9,0
67.7,0
67.5,0
67.3,0
67.1,0
66.9,0
66.7,0
66.5,0
66.3,0
66.1,0
65.9,0
65.7,0
65.5,0
65.3,0
65.1,0
64.9,0
64.7,0
64.5,0
64.3,0
64.1,0
63.9,0
63.7,0
63.5,0
63.3,0
63.1,0
62.9,0
62.7,0
62.5,0
62.3,0
62.1,0
61.9,0
61.7,0
61.5,0
61.3,0
61.1,0
60.9,0
60.7,0
60.5,0
60.3,0
60.1,0
30,0.001563955
29.8,0.001473517
29.6,0.002001194
29.4,0.002195225
29.2,0.002741589
29,0.002713256
28.8,0.003559522
28.6,0.004171756
28.4,0.004802705
28.2,0.005046422
28,0.006074099
27.8,0.007015438
27.6,0.007078775
27.4,0.008219798
27.2,0.008629227
27,0.009261622
26.8,0.009898371
26.6,0.0100388
26.4,0.0104444
26.2,0.0113606
26,0.0106948
25.8,0.0104045
25.6,0.009075816
25.4,0.009872101
25.2,0.008006946
25,0.006961599
24.8,0.00617575
24.6,0.005247981
24.4,0.004619752
24.2,0.003489982
24,0.00275725
23.8,0.002540566
23.6,0.00197045
23.4,0.001384231
23.2,0.00135772
23,0.001045307
22.8,0.000664586
22.6,0.000833553
22.4,0.000491561
22.2,0.000442611
22,0.000471239
21.8,-9.20E-06
21.6,0.000313967
21.4,0.000168752
21.2,0.000291435
21,0.000294569
20.8,0.000756056
20.6,0.000924004
20.4,0.00137839
20.2,0.002387018
20,0.002572007
19.8,0.003713753
19.6,0.004314037
19.4,0.004502308
19.2,0.005042564
19,0.005346216
18.8,0.005986662
18.6,0.006161121
18.4,0.006137731
18.2,0.00675586
18,0.006386579
17.8,0.005784165
17.6,0.004801285
17.4,0.004333931
17.2,0.003675788
17,0.003359905
16.8,0.002919505
16.6,0.003312375
16.4,0.003099349
16.2,0.003409592
16,0.002984838
15.8,0.003981195
15.6,0.004689319
15.4,0.005850677
15.2,0.006561588
15,0.006852152
14.8,0.007980073
14.6,0.007716301
14.4,0.007468351
14.2,0.007576177
14,0.006635548
13.8,0.005199032
13.6,0.004395634
13.4,0.0025762
13.2,0.001523565
13,0.001148243
12.8,0.000929215
12.6,0.000855054
12.4,0.000861872
12.2,0.001140273
12,0.001554176
11.8,0.001878833
11.6,0.001787792
11.4,0.001790163
11.2,0.002076615
11,0.001840292
10.8,0.002006231
10.6,0.002146248
10.4,0.002555449
10.2,0.001984952
10,0.002071595
9.8,0.002345935
9.6,0.002325125
9.4,0.002318778
9.2,0.002031301
9,0.002374031
8.8,0.002181326
8.6,0.002661696
8.4,0.002713003
8.2,0.002980097
8,0.003301346
7.8,0.003275955
7.6,0.002848574
7.4,0.003573729
7.2,0.00344508
7,0.00359632
6.8,0.003574767
6.6,0.004265558
6.4,0.003941199
6.2,0.004153488
6,0.004297733
5.8,0.003743261
5.6,0.003375036
5.4,0.003001378
5.2,0.002814514
5,0.002731844
4.8,0.002755555
4.6,0.002592522
4.4,0.002333332
4.2,0.002921246
4,0.002234521
3.8,0.002093443
3.6,0.001332553
3.4,0.000981503
3.2,0.000560133
3,0.000255037
2.8,0.000189563
2.6,0.000177291
2.4,-6.31243E-05
2.2,0.000111351
2,0
1.8,0
1.6,0
1.4,0
1.2,0
1,0
0.8,0
0.6,0
0.4,0
0.2,0
0,0
-0.2,0
-0.4,0
-0.6,0
-0.8,0
-1,0
-1.2,0
-1.4,0
-1.6,0
-1.8,0
-2,0
-2.2,0
-2.4,0
-2.6,0
-2.8,0
-3,0
-3.2,0
-3.4,0
-3.6,0
-3.8,0
-4,0
-4.2,0
-4.4,0
-4.6,0
-4.8,0
-5,0