File: genXPS/data/experimental_data/poly(vinylidine fluoride) (PVdF)/PVdF.csv
Binding Energy,CPS
700,0
699.8,0
699.6,0
699.4,0
699.2,0
699,0
698.8,0
698.6,0
698.4,0
698.2,0
698,0
697.8,0
697.6,0
697.4,0
697.2,0
697,0
696.8,0
696.6,0
696.4,0
696.2,0
696,0
695.8,0
695.6,0
695.4,0
695.2,0
695,0
694.8,0
694.6,0
694.4,0
694.2,0
694,0
693.8,0
693.6,0
693.4,0
693.2,0
693,0
692.8,0
692.6,0
692.4,-0.000360825
692.2,0.001647657
692,0.002167319
691.8,0.00275495
691.6,0.004741772
691.4,0.00593892
691.2,0.008016949
691,0.0100504
690.8,0.0121521
690.6,0.0177752
690.4,0.0250472
690.2,0.0370385
690,0.055578
689.8,0.0911847
689.6,0.146887
689.4,0.227205
689.2,0.339257
689,0.479714
688.8,0.639421
688.6,0.795731
688.4,0.934581
688.2,1
688,0.993746
687.8,0.900336
687.6,0.760272
687.4,0.578186
687.2,0.413506
687,0.272127
686.8,0.1676864
686.6,0.0967686
686.4,0.05575184
686.2,0.0344442
686,0.0211181
685.8,0.0143999
685.6,0.009687901
685.4,0.006689731
685.2,0.003623085
685,0.002653985
684.8,0.001594241
684.6,0
684.4,0
684.2,0
684,0
683.8,0
683.6,0
683.4,0
683.2,0
683,0
682.8,0
682.6,0
682.4,0
682.2,0
682,0
539.9,0
539.7,0
539.5,0
539.3,0
539.1,0
538.9,0
538.7,0
538.5,0
538.3,0
538.1,0
537.9,0
537.7,0
537.5,0
537.3,0
537.1,0
536.9,0
536.7,0
536.5,0
536.3,0
536.1,0
535.9,0
535.7,0
535.5,0
535.3,0
535.1,0
534.9,0
534.7,0
534.5,0
534.3,0
534.1,0
533.9,0
533.7,0
533.5,0
533.3,0
533.1,0
532.9,0
532.7,0
532.5,0
532.3,0
532.1,0
531.9,0
531.7,0
531.5,0
531.3,0
531.1,0
530.9,0
530.7,0
530.5,0
530.3,0
530.1,0
529.9,0
529.7,0
529.5,0
529.3,0
529.1,0
528.9,0
528.7,0
528.5,0
528.3,0
528.1,0
527.9,0
527.7,0
527.5,0
527.3,0
527.1,0
526.9,0
526.7,0
526.5,0
526.3,0
526.1,0
525.9,0
525.7,0
525.5,0
525.3,0
525.1,0
524.9,0
524.7,0
524.5,0
524.3,0
524.1,0
523.9,0
523.7,0
523.5,0
523.3,0
523.1,0
522.9,0
522.7,0
522.5,0
522.3,0
522.1,0
521.9,0
521.7,0
521.5,0
521.3,0
521.1,0
520.9,0
520.7,0
520.5,0
520.3,0
520.1,0
410,0
409.8,0
409.6,0
409.4,0
409.2,0
409,0
408.8,0
408.6,0
408.4,0
408.2,0
408,0
407.8,0
407.6,0
407.4,0
407.2,0
407,0
406.8,0
406.6,0
406.4,0
406.2,0
406,0
405.8,0
405.6,0
405.4,0
405.2,0
405,0
404.8,0
404.6,0
404.4,0
404.2,0
404,0
403.8,0
403.6,0
403.4,0
403.2,0
403,0
402.8,0
402.6,0
402.4,0
402.2,0
402,0
401.8,0
401.6,0
401.4,0
401.2,0
401,0
400.8,0
400.6,0
400.4,0
400.2,0
400,0
399.8,0
399.6,0
399.4,0
399.2,0
399,0
398.8,0
398.6,0
398.4,0
398.2,0
398,0
397.8,0
397.6,0
397.4,0
397.2,0
397,0
396.8,0
396.6,0
396.4,0
396.2,0
396,0
395.8,0
395.6,0
395.4,0
395.2,0
395,0
394.8,0
394.6,0
394.4,0
394.2,0
394,0
393.8,0
393.6,0
393.4,0
393.2,0
393,0
392.8,0
392.6,0
392.4,0
392.2,0
392,0
299.9,0
299.7,0
299.5,0
299.3,0
299.1,0
298.9,0
298.7,0
298.5,0
298.3,0
298.1,0
297.9,0
297.7,0
297.5,0
297.3,0
297.1,0
296.9,0
296.7,0
296.5,0
296.3,0
296.1,0
295.9,0
295.7,0
295.5,0
295.3,0
295.1,0
294.9,0
294.7,0
294.5,0
294.3,0
294.1,0
293.9,0
293.7,0.000173052
293.5,-0.000119974
293.3,0.000444249
293.1,0.001189307
292.9,0.000467939
292.7,0.000874678
292.5,0.001958958
292.3,0.003766242
292.1,0.008938105
291.9,0.0193067
291.7,0.038872
291.5,0.0724723
291.3,0.115876
291.1,0.155551
290.9,0.175936
290.7,0.15654
290.5,0.112881
290.3,0.0660677
290.1,0.0294401
289.9,0.0134371
289.7,0.007037639
289.5,0.003838102
289.3,0.004812392
289.1,0.004658405
288.9,0.005113766
288.7,0.006066734
288.5,0.007426329
288.3,0.008990562
288.1,0.011368
287.9,0.0148314
287.7,0.0213002
287.5,0.033937
287.3,0.052792
287.1,0.0810318
286.9,0.119251
286.7,0.14834
286.5,0.164994
286.3,0.156829
286.1,0.121409
285.9,0.082618
285.7,0.0482172
285.5,0.0254795
285.3,0.0158611
285.1,0.0104336
284.9,0.007755454
284.7,0.00487252
284.5,0.003612706
284.3,0.002080568
284.1,0
283.9,0
283.7,0
283.5,0
283.3,0
283.1,0
282.9,0
282.7,0
282.5,0
282.3,0
282.1,0
281.9,0
281.7,0
281.5,0
281.3,0
281.1,0
280.9,0
280.7,0
280.5,0
280.3,0
280.1,0
279.9,0
279.7,0
279.5,0
279.3,0
279.1,0
278.9,0
278.7,0
278.5,0
278.3,0
278.1,0
277.9,0
277.7,0
277.5,0
277.3,0
277.1,0
276.9,0
276.7,0
276.5,0
276.3,0
276.1,0
275.9,0
275.7,0
275.5,0
275.3,0
275.1,0
210,0
209.8,0
209.6,0
209.4,0
209.2,0
209,0
208.8,0
208.6,0
208.4,0
208.2,0
208,0
207.8,0
207.6,0
207.4,0
207.2,0
207,0
206.8,0
206.6,0
206.4,0
206.2,0
206,0
205.8,0
205.6,0
205.4,0
205.2,0
205,0
204.8,0
204.6,0
204.4,0
204.2,0
204,0
203.8,0
203.6,0
203.4,0
203.2,0
203,0
202.8,0
202.6,0
202.4,0
202.2,0
202,0
201.8,0
201.6,0
201.4,0
201.2,0
201,0
200.8,0
200.6,0
200.4,0
200.2,0
200,0
199.8,0
199.6,0
199.4,0
199.2,0
199,0
198.8,0
198.6,0
198.4,0
198.2,0
198,0
197.8,0
197.6,0
197.4,0
197.2,0
197,0
196.8,0
196.6,0
196.4,0
196.2,0
196,0
89.9,0
89.7,0
89.5,0
89.3,0
89.1,0
88.9,0
88.7,0
88.5,0
88.3,0
88.1,0
87.9,0
87.7,0
87.5,0
87.3,0
87.1,0
86.9,0
86.7,0
86.5,0
86.3,0
86.1,0
85.9,0
85.7,0
85.5,0
85.3,0
85.1,0
84.9,0
84.7,0
84.5,0
84.3,0
84.1,0
83.9,0
83.7,0
83.5,0
83.3,0
83.1,0
82.9,0
82.7,0
82.5,0
82.3,0
82.1,0
81.9,0
81.7,0
81.5,0
81.3,0
81.1,0
80.9,0
80.7,0
80.5,0
80.3,0
80.1,0
79.9,0
79.7,0
79.5,0
79.3,0
79.1,0
78.9,0
78.7,0
78.5,0
78.3,0
78.1,0
77.9,0
77.7,0
77.5,0
77.3,0
77.1,0
76.9,0
76.7,0
76.5,0
76.3,0
76.1,0
75.9,0
75.7,0
75.5,0
75.3,0
75.1,0
74.9,0
74.7,0
74.5,0
74.3,0
74.1,0
73.9,0
73.7,0
73.5,0
73.3,0
73.1,0
72.9,0
72.7,0
72.5,0
72.3,0
72.1,0
71.9,0
71.7,0
71.5,0
71.3,0
71.1,0
70.9,0
70.7,0
70.5,0
70.3,0
70.1,0
69.9,0
69.7,0
69.5,0
69.3,0
69.1,0
68.9,0
68.7,0
68.5,0
68.3,0
68.1,0
67.9,0
67.7,0
67.5,0
67.3,0
67.1,0
66.9,0
66.7,0
66.5,0
66.3,0
66.1,0
65.9,0
65.7,0
65.5,0
65.3,0
65.1,0
64.9,0
64.7,0
64.5,0
64.3,0
64.1,0
63.9,0
63.7,0
63.5,0
63.3,0
63.1,0
62.9,0
62.7,0
62.5,0
62.3,0
62.1,0
61.9,0
61.7,0
61.5,0
61.3,0
61.1,0
60.9,0
60.7,0
60.5,0
60.3,0
60.1,0
30,0.003654226
29.8,0.003084374
29.6,0.002760743
29.4,0.002497962
29.2,0.00217186
29,0.001871665
28.8,0.001706166
28.6,0.001392947
28.4,0.001247387
28.2,0.00108481
28,0.00105632
27.8,0.0010004
27.6,0.000949155
27.4,0.00107873
27.2,0.00075661
27,0.000743941
26.8,0.000787887
26.6,0.000706985
26.4,0.000761743
26.2,0.000788502
26,0.000611293
25.8,0.000614463
25.6,0.000685906
25.4,0.000401127
25.2,0.000601354
25,0.000440419
24.8,0.000403095
24.6,0.000366133
24.4,0.000346036
24.2,0.000500784
24,0.000339267
23.8,0.000505403
23.6,0.000224877
23.4,0.000345015
23.2,0.000358191
23,0.000354722
22.8,0.000436228
22.6,0.000495273
22.4,0.000894386
22.2,0.00110867
22,0.001420304
21.8,0.001784553
21.6,0.002196255
21.4,0.00246818
21.2,0.002719059
21,0.002700389
20.8,0.002834166
20.6,0.002951653
20.4,0.002729562
20.2,0.002591425
20,0.002542725
19.8,0.002267433
19.6,0.001962461
19.4,0.002012278
19.2,0.001723121
19,0.0016531
18.8,0.001453047
18.6,0.001410089
18.4,0.001338302
18.2,0.001493151
18,0.001518821
17.8,0.001911324
17.6,0.001915249
17.4,0.002225896
17.2,0.002113356
17,0.002583269
16.8,0.002783694
16.6,0.003143391
16.4,0.003595745
16.2,0.00386419
16,0.004207591
15.8,0.003957834
15.6,0.003215122
15.4,0.002366413
15.2,0.001739851
15,0.001448912
14.8,0.001575593
14.6,0.002314216
14.4,0.002965269
14.2,0.0039497
14,0.004689332
13.8,0.004918648
13.6,0.004713175
13.4,0.004274544
13.2,0.003861454
13,0.003299448
12.8,0.003051146
12.6,0.002722263
12.4,0.002900752
12.2,0.002989478
12,0.00327679
11.8,0.003260416
11.6,0.003147543
11.4,0.003164696
11.2,0.003119396
11,0.00332302
10.8,0.003679908
10.6,0.003818496
10.4,0.004473469
10.2,0.005346866
10,0.006050066
9.8,0.006689538
9.6,0.007190134
9.4,0.0069975
9.2,0.006451893
9,0.005540603
8.8,0.004603001
8.6,0.003604092
8.4,0.002860045
8.2,0.002604069
8,0
7.8,0
7.6,0
7.4,0
7.2,0
7,0
6.8,0
6.6,0
6.4,0
6.2,0
6,0
5.8,0
5.6,0
5.4,0
5.2,0
5,0
4.8,0
4.6,0
4.4,0
4.2,0
4,0
3.8,0
3.6,0
3.4,0
3.2,0
3,0
2.8,0
2.6,0
2.4,0
2.2,0
2,0
1.8,0
1.6,0
1.4,0
1.2,0
1,0
0.8,0
0.6,0
0.4,0
0.2,0
0,0
-0.2,0
-0.4,0
-0.6,0
-0.8,0
-1,0
-1.2,0
-1.4,0
-1.6,0
-1.8,0
-2,0
-2.2,0
-2.4,0
-2.6,0
-2.8,0
-3,0
-3.2,0
-3.4,0
-3.6,0
-3.8,0
-4,0
-4.2,0
-4.4,0
-4.6,0
-4.8,0
-5,0