File: genXPS/data/experimental_data/poly(ethylene terephthalate) (PET)/PET.csv
Binding Energy,CPS
700,0
699.8,0
699.6,0
699.4,0
699.2,0
699,0
698.8,0
698.6,0
698.4,0
698.2,0
698,0
697.8,0
697.6,0
697.4,0
697.2,0
697,0
696.8,0
696.6,0
696.4,0
696.2,0
696,0
695.8,0
695.6,0
695.4,0
695.2,0
695,0
694.8,0
694.6,0
694.4,0
694.2,0
694,0
693.8,0
693.6,0
693.4,0
693.2,0
693,0
692.8,0
692.6,0
692.4,0
692.2,0
692,0
691.8,0
691.6,0
691.4,0
691.2,0
691,0
690.8,0
690.6,0
690.4,0
690.2,0
690,0
689.8,0
689.6,0
689.4,0
689.2,0
689,0
688.8,0
688.6,0
688.4,0
688.2,0
688,0
687.8,0
687.6,0
687.4,0
687.2,0
687,0
686.8,0
686.6,0
686.4,0
686.2,0
686,0
685.8,0
685.6,0
685.4,0
685.2,0
685,0
684.8,0
684.6,0
684.4,0
684.2,0
684,0
683.8,0
683.6,0
683.4,0
683.2,0
683,0
682.8,0
682.6,0
682.4,0
682.2,0
682,0
539.9,0.008965048
539.7,0.00914262
539.5,0.0128948
539.3,0.0111186
539.1,0.0200075
538.9,0.0130927
538.7,0.02303693
538.5,0.0315621
538.3,0.0311757
538.1,0.0371039
537.9,0.0354127
537.7,0.0242191
537.5,0.0178852
537.3,0.0144043
537.1,0.006649289
536.9,0.006022292
536.7,0.002566851
536.5,0.000134095
536.3,0.00502623
536.1,0.008946973
535.9,0.0160134
535.7,0.0223139
535.5,0.038704
535.3,0.0373277
535.1,0.0381061
534.9,0.0587533
534.7,0.08336
534.5,0.132197
534.3,0.201031
534.1,0.345962
533.9,0.513071
533.7,0.683156
533.5,0.880481
533.3,0.990934
533.1,0.99187
532.9,0.886047
532.7,0.75276
532.5,0.651312
532.3,0.655774
532.1,0.743417
531.9,0.874558
531.7,0.955528
531.5,0.92704
531.3,0.768012
531.1,0.514828
530.9,0.288793
530.7,0
530.5,0
530.3,0
530.1,0
529.9,0
529.7,0
529.5,0
529.3,0
529.1,0
528.9,0
528.7,0
528.5,0
528.3,0
528.1,0
527.9,0
527.7,0
527.5,0
527.3,0
527.1,0
526.9,0
526.7,0
526.5,0
526.3,0
526.1,0
525.9,0
525.7,0
525.5,0
525.3,0
525.1,0
524.9,0
524.7,0
524.5,0
524.3,0
524.1,0
523.9,0
523.7,0
523.5,0
523.3,0
523.1,0
522.9,0
522.7,0
522.5,0
522.3,0
522.1,0
521.9,0
521.7,0
521.5,0
521.3,0
521.1,0
520.9,0
520.7,0
520.5,0
520.3,0
520.1,0
410,0
409.8,0
409.6,0
409.4,0
409.2,0
409,0
408.8,0
408.6,0
408.4,0
408.2,0
408,0
407.8,0
407.6,0
407.4,0
407.2,0
407,0
406.8,0
406.6,0
406.4,0
406.2,0
406,0
405.8,0
405.6,0
405.4,0
405.2,0
405,0
404.8,0
404.6,0
404.4,0
404.2,0
404,0
403.8,0
403.6,0
403.4,0
403.2,0
403,0
402.8,0
402.6,0
402.4,0
402.2,0
402,0
401.8,0
401.6,0
401.4,0
401.2,0
401,0
400.8,0
400.6,0
400.4,0
400.2,0
400,0
399.8,0
399.6,0
399.4,0
399.2,0
399,0
398.8,0
398.6,0
398.4,0
398.2,0
398,0
397.8,0
397.6,0
397.4,0
397.2,0
397,0
396.8,0
396.6,0
396.4,0
396.2,0
396,0
395.8,0
395.6,0
395.4,0
395.2,0
395,0
394.8,0
394.6,0
394.4,0
394.2,0
394,0
393.8,0
393.6,0
393.4,0
393.2,0
393,0
392.8,0
392.6,0
392.4,0
392.2,0
392,0
299.9,0
299.7,0
299.5,0
299.3,0
299.1,0
298.9,0
298.7,0
298.5,0
298.3,0
298.1,0
297.9,0
297.7,0
297.5,0
297.3,0
297.1,0
296.9,0
296.7,0
296.5,0
296.3,0
296.1,0
295.9,0
295.7,0
295.5,0
295.3,0
295.1,0
294.9,0
294.7,0
294.5,0
294.3,0
294.1,0
293.9,0
293.7,0.005420698
293.5,0.002891218
293.3,0.003391692
293.1,0.000476048
292.9,0.004597078
292.7,0.006383786
292.5,0.007986083
292.3,0.0102992
292.1,0.0161295
291.9,0.0218972
291.7,0.0252452
291.5,0.0299754
291.3,0.0352178
291.1,0.029612
290.9,0.0310352
290.7,0.02570368
290.5,0.0183768
290.3,0.0180696
290.1,0.0112068
289.9,0
289.7,0
289.5,0
289.3,0
289.1,0
288.9,0
288.7,0
288.5,0
288.3,0
288.1,0
287.9,0
287.7,0
287.5,0
287.3,0
287.1,0
286.9,0
286.7,0
286.5,0
286.3,0
286.1,0
285.9,0
285.7,0
285.5,0
285.3,0
285.1,0
284.9,0
284.7,0
284.5,0
284.3,0
284.1,0
283.9,0
283.7,0
283.5,0
283.3,0
283.1,0
282.9,0
282.7,0
282.5,0
282.3,0
282.1,0
281.9,0
281.7,0
281.5,0
281.3,0
281.1,0
280.9,0
280.7,0
280.5,0
280.3,0
280.1,0
279.9,0
279.7,0
279.5,0
279.3,0
279.1,0
278.9,0
278.7,0
278.5,0
278.3,0
278.1,0
277.9,0
277.7,0
277.5,0
277.3,0
277.1,0
276.9,0
276.7,0
276.5,0
276.3,0
276.1,0
275.9,0
275.7,0
275.5,0
275.3,0
275.1,0
210,0
209.8,0
209.6,0
209.4,0
209.2,0
209,0
208.8,0
208.6,0
208.4,0
208.2,0
208,0
207.8,0
207.6,0
207.4,0
207.2,0
207,0
206.8,0
206.6,0
206.4,0
206.2,0
206,0
205.8,0
205.6,0
205.4,0
205.2,0
205,0
204.8,0
204.6,0
204.4,0
204.2,0
204,0
203.8,0
203.6,0
203.4,0
203.2,0
203,0
202.8,0
202.6,0
202.4,0
202.2,0
202,0
201.8,0
201.6,0
201.4,0
201.2,0
201,0
200.8,0
200.6,0
200.4,0
200.2,0
200,0
199.8,0
199.6,0
199.4,0
199.2,0
199,0
198.8,0
198.6,0
198.4,0
198.2,0
198,0
197.8,0
197.6,0
197.4,0
197.2,0
197,0
196.8,0
196.6,0
196.4,0
196.2,0
196,0
89.9,0
89.7,0
89.5,0
89.3,0
89.1,0
88.9,0
88.7,0
88.5,0
88.3,0
88.1,0
87.9,0
87.7,0
87.5,0
87.3,0
87.1,0
86.9,0
86.7,0
86.5,0
86.3,0
86.1,0
85.9,0
85.7,0
85.5,0
85.3,0
85.1,0
84.9,0
84.7,0
84.5,0
84.3,0
84.1,0
83.9,0
83.7,0
83.5,0
83.3,0
83.1,0
82.9,0
82.7,0
82.5,0
82.3,0
82.1,0
81.9,0
81.7,0
81.5,0
81.3,0
81.1,0
80.9,0
80.7,0
80.5,0
80.3,0
80.1,0
79.9,0
79.7,0
79.5,0
79.3,0
79.1,0
78.9,0
78.7,0
78.5,0
78.3,0
78.1,0
77.9,0
77.7,0
77.5,0
77.3,0
77.1,0
76.9,0
76.7,0
76.5,0
76.3,0
76.1,0
75.9,0
75.7,0
75.5,0
75.3,0
75.1,0
74.9,0
74.7,0
74.5,0
74.3,0
74.1,0
73.9,0
73.7,0
73.5,0
73.3,0
73.1,0
72.9,0
72.7,0
72.5,0
72.3,0
72.1,0
71.9,0
71.7,0
71.5,0
71.3,0
71.1,0
70.9,0
70.7,0
70.5,0
70.3,0
70.1,0
69.9,0
69.7,0
69.5,0
69.3,0
69.1,0
68.9,0
68.7,0
68.5,0
68.3,0
68.1,0
67.9,0
67.7,0
67.5,0
67.3,0
67.1,0
66.9,0
66.7,0
66.5,0
66.3,0
66.1,0
65.9,0
65.7,0
65.5,0
65.3,0
65.1,0
64.9,0
64.7,0
64.5,0
64.3,0
64.1,0
63.9,0
63.7,0
63.5,0
63.3,0
63.1,0
62.9,0
62.7,0
62.5,0
62.3,0
62.1,0
61.9,0
61.7,0
61.5,0
61.3,0
61.1,0
60.9,0
60.7,0
60.5,0
60.3,0
60.1,0
30,0.0609716
29.8,0.0717912
29.6,0.0796732
29.4,0.0954874
29.2,0.102312
29,0.121281
28.8,0.1271
28.6,0.141472
28.4,0.147509
28.2,0.154671
28,0.157944
27.8,0.162903
27.6,0.166162
27.4,0.167864
27.2,0.164973
27,0.16927
26.8,0.173199
26.6,0.176662
26.4,0.176626
26.2,0.183099
26,0.186988
25.8,0.18799
25.6,0.182434
25.4,0.176596
25.2,0.167963
25,0.153533
24.8,0.142449
24.6,0.125309
24.4,0.11072
24.2,0.100796
24,0.0884199
23.8,0.0742865
23.6,0.0666209
23.4,0.0587239
23.2,0.0527891
23,0.0469207
22.8,0.0450253
22.6,0.0366943
22.4,0.0362806
22.2,0.0350808
22,0.0305189
21.8,0.0325467
21.6,0.0328412
21.4,0.0336802
21.2,0.0388872
21,0.0444943
20.8,0.0456682
20.6,0.0507894
20.4,0.0554776
20.2,0.0562787
20,0.0583236
19.8,0.0594394
19.6,0.060749
19.4,0.0644265
19.2,0.0713699
19,0.0775971
18.8,0.0832745
18.6,0.085582
18.4,0.0923578
18.2,0.09294618
18,0.0959329
17.8,0.0938304
17.6,0.09487773
17.4,0.0956132
17.2,0.0906492
17,0.0895288
16.8,0.0868618
16.6,0.0802619
16.4,0.0768592
16.2,0.0740608
16,0.0723742
15.8,0.0696499
15.6,0.0686369
15.4,0.0653517
15.2,0.0664966
15,0.0624967
14.8,0.0686604
14.6,0.0747833
14.4,0.0829142
14.2,0.0928473
14,0.0999865
13.8,0.108637
13.6,0.116947
13.4,0.122284
13.2,0.122893
13,0.11633
12.8,0.115624
12.6,0.10339
12.4,0.0964256
12.2,0.0891581
12,0.0775297
11.8,0.0692063
11.6,0.0658288
11.4,0.0680883
11.2,0.0756995
11,0.0878227
10.8,0.103564
10.6,0.1234929
10.4,0.140321
10.2,0.148542
10,0.148858
9.8,0.137507
9.6,0.123936
9.4,0.109625
9.2,0.0980314
9,0.0906727
8.8,0.0806586
8.6,0.0716618
8.4,0.0665754
8.2,0.0591185
8,0.0570001
7.8,0.0539678
7.6,0.0584305
7.4,0.0626569
7.2,0.0681098
7,0.07327747
6.8,0.07515565
6.6,0.0743268
6.4,0.068314
6.2,0.0609455
6,0.0563424
5.8,0.0527995
5.6,0.0569459
5.4,0.06386
5.2,0.0735658
5,0.0843501
4.8,0.0901753
4.6,0.0882683
4.4,0.0822333
4.2,0.0666711
4,0.051444
3.8,0.0352621
3.6,0.0250363
3.4,0.0164261
3.2,0.0123407
3,0.006171802
2.8,0.003605127
2.6,0.001278868
2.4,0.000307253
2.2,0
2,0
1.8,0
1.6,0
1.4,0
1.2,0
1,0
0.8,0
0.6,0
0.4,0
0.2,0
0,0
-0.2,0
-0.4,0
-0.6,0
-0.8,0
-1,0
-1.2,0
-1.4,0
-1.6,0
-1.8,0
-2,0
-2.2,0
-2.4,0
-2.6,0
-2.8,0
-3,0
-3.2,0
-3.4,0
-3.6,0
-3.8,0
-4,0
-4.2,0
-4.4,0
-4.6,0
-4.8,0
-5,0