File: genXPS/data/experimental_data/Nylon 12 (N12)/N12.csv
Binding Energy,CPS
700,0
699.8,0
699.6,0
699.4,0
699.2,0
699,0
698.8,0
698.6,0
698.4,0
698.2,0
698,0
697.8,0
697.6,0
697.4,0
697.2,0
697,0
696.8,0
696.6,0
696.4,0
696.2,0
696,0
695.8,0
695.6,0
695.4,0
695.2,0
695,0
694.8,0
694.6,0
694.4,0
694.2,0
694,0
693.8,0
693.6,0
693.4,0
693.2,0
693,0
692.8,0
692.6,0
692.4,0
692.2,0
692,0
691.8,0
691.6,0
691.4,0
691.2,0
691,0
690.8,0
690.6,0
690.4,0
690.2,0
690,0
689.8,0
689.6,0
689.4,0
689.2,0
689,0
688.8,0
688.6,0
688.4,0
688.2,0
688,0
687.8,0
687.6,0
687.4,0
687.2,0
687,0
686.8,0
686.6,0
686.4,0
686.2,0
686,0
685.8,0
685.6,0
685.4,0
685.2,0
685,0
684.8,0
684.6,0
684.4,0
684.2,0
684,0
683.8,0
683.6,0
683.4,0
683.2,0
683,0
682.8,0
682.6,0
682.4,0
682.2,0
682,0
539.9,0
539.7,0
539.5,0
539.3,0
539.1,0
538.9,0
538.7,0
538.5,0
538.3,0
538.1,0
537.9,0
537.7,0
537.5,0
537.3,0
537.1,0
536.9,0
536.7,0
536.5,0
536.3,0
536.1,0
535.9,0
535.7,0
535.5,0
535.3,0
535.1,0
534.9,0
534.7,-0.003373055
534.5,0.000555434
534.3,-0.001856375
534.1,0.000131762
533.9,0.000416812
533.7,0.002878652
533.5,0.004823381
533.3,0.00511399
533.1,0.005877593
532.9,0.009957596
532.7,0.0173535
532.5,0.0316212
532.3,0.0486971
532.1,0.0827838
531.9,0.118851
531.7,0.156282
531.5,0.184666
531.3,0.189833
531.1,0.167878
530.9,0.116306
530.7,0.0667169
530.5,0.0315627
530.3,0.0160667
530.1,0.007795946
529.9,0.002217596
529.7,0.002502883
529.5,-0.003504225
529.3,-0.000522198
529.1,-0.001609292
528.9,0
528.7,0
528.5,0
528.3,0
528.1,0
527.9,0
527.7,0
527.5,0
527.3,0
527.1,0
526.9,0
526.7,0
526.5,0
526.3,0
526.1,0
525.9,0
525.7,0
525.5,0
525.3,0
525.1,0
524.9,0
524.7,0
524.5,0
524.3,0
524.1,0
523.9,0
523.7,0
523.5,0
523.3,0
523.1,0
522.9,0
522.7,0
522.5,0
522.3,0
522.1,0
521.9,0
521.7,0
521.5,0
521.3,0
521.1,0
520.9,0
520.7,0
520.5,0
520.3,0
520.1,0
410,0
409.8,0
409.6,0
409.4,0
409.2,0
409,0
408.8,0
408.6,0
408.4,0
408.2,0
408,0
407.8,0
407.6,0
407.4,0
407.2,0
407,0
406.8,0
406.6,0
406.4,0
406.2,0
406,0
405.8,0
405.6,0
405.4,0
405.2,0
405,0
404.8,0
404.6,0
404.4,0
404.2,0
404,0
403.8,0
403.6,0
403.4,0
403.2,-0.001245941
403,0.000883064
402.8,0.00149811
402.6,0.001072191
402.4,0.0028699
402.2,-0.002665515
402,7.85E-05
401.8,0.002491291
401.6,0.005235225
401.4,0.005045743
401.2,0.007600432
401,0.01531169
400.8,0.0217453
400.6,0.0400536
400.4,0.0695737
400.2,0.0963013
400,0.127097
399.8,0.131681
399.6,0.118193
399.4,0.09155292
399.2,0.0597572
399,0.0292873
398.8,0.0128696
398.6,0.007333833
398.4,0.003927187
398.2,-0.000945988
398,0.002271176
397.8,-0.000425565
397.6,-0.000283749
397.4,-0.000662239
397.2,0.000662357
397,0.000898913
396.8,0
396.6,0
396.4,0
396.2,0
396,0
395.8,0
395.6,0
395.4,0
395.2,0
395,0
394.8,0
394.6,0
394.4,0
394.2,0
394,0
393.8,0
393.6,0
393.4,0
393.2,0
393,0
392.8,0
392.6,0
392.4,0
392.2,0
392,0
299.9,0
299.7,0
299.5,0
299.3,0
299.1,0
298.9,0
298.7,0
298.5,0
298.3,0
298.1,0
297.9,0
297.7,0
297.5,0
297.3,0
297.1,0
296.9,0
296.7,0
296.5,0
296.3,0
296.1,0
295.9,0
295.7,0
295.5,0
295.3,0
295.1,0
294.9,0
294.7,0
294.5,0
294.3,0
294.1,0
293.9,0
293.7,0
293.5,0
293.3,0
293.1,0
292.9,0
292.7,0
292.5,0
292.3,0
292.1,0
291.9,0
291.7,0
291.5,0
291.3,0
291.1,0
290.9,0
290.7,0
290.5,0
290.3,0
290.1,0
289.9,0
289.7,0
289.5,-0.000189198
289.3,0.003264783
289.1,0.007854801
288.9,0.0127296
288.7,0.0272578
288.5,0.0449584
288.3,0.0677256
288.1,0.08817808
287.9,0.0928775
287.7,0.0709861
287.5,0.0439805
287.3,0.0255818
287.1,0.0206652
286.9,0.0309364
286.7,0.0492058
286.5,0.0811523
286.3,0.120533
286.1,0.186276
285.9,0.280088
285.7,0.422179
285.5,0.621073
285.3,0.856436
285.1,1
284.9,0.9099415
284.7,0.619104
284.5,0.312693
284.3,0.121209
284.1,0.043156
283.9,0.0168078
283.7,0.007820512
283.5,0.003752633
283.3,0.001245622
283.1,0.000583454
282.9,0
282.7,0
282.5,0
282.3,0
282.1,0
281.9,0
281.7,0
281.5,0
281.3,0
281.1,0
280.9,0
280.7,0
280.5,0
280.3,0
280.1,0
279.9,0
279.7,0
279.5,0
279.3,0
279.1,0
278.9,0
278.7,0
278.5,0
278.3,0
278.1,0
277.9,0
277.7,0
277.5,0
277.3,0
277.1,0
276.9,0
276.7,0
276.5,0
276.3,0
276.1,0
275.9,0
275.7,0
275.5,0
275.3,0
275.1,0
210,0
209.8,0
209.6,0
209.4,0
209.2,0
209,0
208.8,0
208.6,0
208.4,0
208.2,0
208,0
207.8,0
207.6,0
207.4,0
207.2,0
207,0
206.8,0
206.6,0
206.4,0
206.2,0
206,0
205.8,0
205.6,0
205.4,0
205.2,0
205,0
204.8,0
204.6,0
204.4,0
204.2,0
204,0
203.8,0
203.6,0
203.4,0
203.2,0
203,0
202.8,0
202.6,0
202.4,0
202.2,0
202,0
201.8,0
201.6,0
201.4,0
201.2,0
201,0
200.8,0
200.6,0
200.4,0
200.2,0
200,0
199.8,0
199.6,0
199.4,0
199.2,0
199,0
198.8,0
198.6,0
198.4,0
198.2,0
198,0
197.8,0
197.6,0
197.4,0
197.2,0
197,0
196.8,0
196.6,0
196.4,0
196.2,0
196,0
89.9,0
89.7,0
89.5,0
89.3,0
89.1,0
88.9,0
88.7,0
88.5,0
88.3,0
88.1,0
87.9,0
87.7,0
87.5,0
87.3,0
87.1,0
86.9,0
86.7,0
86.5,0
86.3,0
86.1,0
85.9,0
85.7,0
85.5,0
85.3,0
85.1,0
84.9,0
84.7,0
84.5,0
84.3,0
84.1,0
83.9,0
83.7,0
83.5,0
83.3,0
83.1,0
82.9,0
82.7,0
82.5,0
82.3,0
82.1,0
81.9,0
81.7,0
81.5,0
81.3,0
81.1,0
80.9,0
80.7,0
80.5,0
80.3,0
80.1,0
79.9,0
79.7,0
79.5,0
79.3,0
79.1,0
78.9,0
78.7,0
78.5,0
78.3,0
78.1,0
77.9,0
77.7,0
77.5,0
77.3,0
77.1,0
76.9,0
76.7,0
76.5,0
76.3,0
76.1,0
75.9,0
75.7,0
75.5,0
75.3,0
75.1,0
74.9,0
74.7,0
74.5,0
74.3,0
74.1,0
73.9,0
73.7,0
73.5,0
73.3,0
73.1,0
72.9,0
72.7,0
72.5,0
72.3,0
72.1,0
71.9,0
71.7,0
71.5,0
71.3,0
71.1,0
70.9,0
70.7,0
70.5,0
70.3,0
70.1,0
69.9,0
69.7,0
69.5,0
69.3,0
69.1,0
68.9,0
68.7,0
68.5,0
68.3,0
68.1,0
67.9,0
67.7,0
67.5,0
67.3,0
67.1,0
66.9,0
66.7,0
66.5,0
66.3,0
66.1,0
65.9,0
65.7,0
65.5,0
65.3,0
65.1,0
64.9,0
64.7,0
64.5,0
64.3,0
64.1,0
63.9,0
63.7,0
63.5,0
63.3,0
63.1,0
62.9,0
62.7,0
62.5,0
62.3,0
62.1,0
61.9,0
61.7,0
61.5,0
61.3,0
61.1,0
60.9,0
60.7,0
60.5,0
60.3,0
60.1,0
30,6.97E-05
29.8,5.87E-05
29.6,-3.28E-05
29.4,-0.000184467
29.2,-0.000312242
29,8.86E-06
28.8,0.000140124
28.6,-4.71E-05
28.4,0.000312384
28.2,0.000342971
28,0.000586778
27.8,0.000629168
27.6,0.001137043
27.4,0.000735157
27.2,0.001271016
27,0.000977568
26.8,0.001170385
26.6,0.001486259
26.4,0.001280455
26.2,0.001891787
26,0.001759387
25.8,0.001411259
25.6,0.00123642
25.4,0.001074746
25.2,0.001053479
25,0.000994553
24.8,0.001003034
24.6,0.000953842
24.4,0.000749244
24.2,0.00080836
24,0.001069565
23.8,0.001095338
23.6,0.001430112
23.4,0.001126055
23.2,0.000949134
23,0.001033786
22.8,0.001108088
22.6,0.001028239
22.4,0.001267385
22.2,0.000962689
22,0.000843689
21.8,0.000797774
21.6,0.000996268
21.4,0.000912882
21.2,0.000757098
21,0.000745755
20.8,0.001329694
20.6,0.002203876
20.4,0.002159249
20.2,0.002521346
20,0.003294908
19.8,0.003770907
19.6,0.003654024
19.4,0.00406109
19.2,0.004151632
19,0.003993068
18.8,0.003794054
18.6,0.003569408
18.4,0.00329699
18.2,0.003308475
18,0.003540241
17.8,0.003216892
17.6,0.003352427
17.4,0.003169534
17.2,0.002661091
17,0.002708758
16.8,0.00273084
16.6,0.002338299
16.4,0.002537396
16.2,0.003025613
16,0.002410614
15.8,0.002418751
15.6,0.003118165
15.4,0.003181101
15.2,0.003151212
15,0.003336542
14.8,0.003513936
14.6,0.003694097
14.4,0.004365361
14.2,0.005365047
14,0.005771782
13.8,0.00589815
13.6,0.0057156
13.4,0.005069576
13.2,0.004340912
13,0.003349162
12.8,0.001963227
12.6,0.001083889
12.4,0.000872237
12.2,0.000632568
12,0.00035521
11.8,0.000634586
11.6,0.000893833
11.4,0.001192176
11.2,0.001445888
11,0.001142236
10.8,0.001480128
10.6,0.001618178
10.4,0.001448183
10.2,0.001671088
10,0.001751955
9.8,0.001525045
9.6,0.001629438
9.4,0.001902074
9.2,0.00165078
9,0.001671687
8.8,0.00138508
8.6,0.001322613
8.4,0.001804083
8.2,0.001718176
8,0.001346945
7.8,0.001364509
7.6,0.001466839
7.4,0.0015947
7.2,0.001711729
7,0.001472964
6.8,0.001433979
6.6,0.00135887
6.4,0.00139016
6.2,0.001432589
6,0.001403748
5.8,0.00121887
5.6,0.001031921
5.4,0.000986624
5.2,0.000725931
5,0.001032957
4.8,0.000700456
4.6,0.000914694
4.4,0.001441
4.2,0.001590829
4,0.001326048
3.8,0.001211772
3.6,0.000701755
3.4,0.000448304
3.2,0.00016817
3,3.14856E-06
2.8,7.54188E-05
2.6,-5.41028E-05
2.4,-5.85595E-06
2.2,-6.46035E-05
2,-4.04499E-05
1.8,0
1.6,0
1.4,0
1.2,0
1,0
0.8,0
0.6,0
0.4,0
0.2,0
0,0
-0.2,0
-0.4,0
-0.6,0
-0.8,0
-1,0
-1.2,0
-1.4,0
-1.6,0
-1.8,0
-2,0
-2.2,0
-2.4,0
-2.6,0
-2.8,0
-3,0
-3.2,0
-3.4,0
-3.6,0
-3.8,0
-4,0
-4.2,0
-4.4,0
-4.6,0
-4.8,0
-5,0