File: genXPS/data/experimental_data/cellulose trinitrate (CTN)/CTN.csv
Binding Energy,CPS
700,0
699.8,0
699.6,0
699.4,0
699.2,0
699,0
698.8,0
698.6,0
698.4,0
698.2,0
698,0
697.8,0
697.6,0
697.4,0
697.2,0
697,0
696.8,0
696.6,0
696.4,0
696.2,0
696,0
695.8,0
695.6,0
695.4,0
695.2,0
695,0
694.8,0
694.6,0
694.4,0
694.2,0
694,0
693.8,0
693.6,0
693.4,0
693.2,0
693,0
692.8,0
692.6,0
692.4,0
692.2,0
692,0
691.8,0
691.6,0
691.4,0
691.2,0
691,0
690.8,0
690.6,0
690.4,0
690.2,0
690,0
689.8,0
689.6,0
689.4,0
689.2,0
689,0
688.8,0
688.6,0
688.4,0
688.2,0
688,0
687.8,0
687.6,0
687.4,0
687.2,0
687,0
686.8,0
686.6,0
686.4,0
686.2,0
686,0
685.8,0
685.6,0
685.4,0
685.2,0
685,0
684.8,0
684.6,0
684.4,0
684.2,0
684,0
683.8,0
683.6,0
683.4,0
683.2,0
683,0
682.8,0
682.6,0
682.4,0
682.2,0
682,0
539.9,0
539.7,0
539.5,0
539.3,0
539.1,0
538.9,0
538.7,0
538.5,0
538.3,0
538.1,0
537.9,0
537.7,-0.000182069
537.5,0.001423456
537.3,0.002775981
537.1,0.004641162
536.9,0.0124213
536.7,0.0173645
536.5,0.0305968
536.3,0.04917392
536.1,0.0902947
535.9,0.149495
535.7,0.236907
535.5,0.352314
535.3,0.491953
535.1,0.65641
534.9,0.799797
534.7,0.921758
534.5,0.990327
534.3,0.993259
534.1,0.959732
533.9,0.88587
533.7,0.790598
533.5,0.66392
533.3,0.504058
533.1,0.363305
532.9,0.246565
532.7,0.150338
532.5,0.0847946
532.3,0.0524198
532.1,0.0329227
531.9,0.0217957
531.7,0.015399
531.5,0.0106727
531.3,0.007547608
531.1,0.0055495
530.9,0.002162125
530.7,-0.000425496
530.5,0
530.3,0
530.1,0
529.9,0
529.7,0
529.5,0
529.3,0
529.1,0
528.9,0
528.7,0
528.5,0
528.3,0
528.1,0
527.9,0
527.7,0
527.5,0
527.3,0
527.1,0
526.9,0
526.7,0
526.5,0
526.3,0
526.1,0
525.9,0
525.7,0
525.5,0
525.3,0
525.1,0
524.9,0
524.7,0
524.5,0
524.3,0
524.1,0
523.9,0
523.7,0
523.5,0
523.3,0
523.1,0
522.9,0
522.7,0
522.5,0
522.3,0
522.1,0
521.9,0
521.7,0
521.5,0
521.3,0
521.1,0
520.9,0
520.7,0
520.5,0
520.3,0
520.1,0
410,0.003242869
409.8,0.008396686
409.6,0.0112218
409.4,0.01734049
409.2,0.0340947
409,0.05723619
408.8,0.0950638
408.6,0.14465
408.4,0.180316
408.2,0.201772
408,0.183031
407.8,0.130553
407.6,0.0796515
407.4,0.043325
407.2,0.0199294
407,0.0107649
406.8,0.005965332
406.6,0.005391592
406.4,0.005145703
406.2,0.004898355
406,0.003411171
405.8,0.0039303
405.6,0.004485076
405.4,0.003507995
405.2,0.005120904
405,0.0062641
404.8,0.004523186
404.6,0.003473623
404.4,0.003844508
404.2,0.001661869
404,-0.000669105
403.8,0.003089336
403.6,-4.41E-05
403.4,0.000796836
403.2,0.00138252
403,-0.000111047
402.8,0.000145692
402.6,0
402.4,0
402.2,0
402,0
401.8,0
401.6,0
401.4,0
401.2,0
401,0
400.8,0
400.6,0
400.4,0
400.2,0
400,0
399.8,0
399.6,0
399.4,0
399.2,0
399,0
398.8,0
398.6,0
398.4,0
398.2,0
398,0
397.8,0
397.6,0
397.4,0
397.2,0
397,0
396.8,0
396.6,0
396.4,0
396.2,0
396,0
395.8,0
395.6,0
395.4,0
395.2,0
395,0
394.8,0
394.6,0
394.4,0
394.2,0
394,0
393.8,0
393.6,0
393.4,0
393.2,0
393,0
392.8,0
392.6,0
392.4,0
392.2,0
392,0
299.9,0
299.7,0
299.5,0
299.3,0
299.1,0
298.9,0
298.7,0
298.5,0
298.3,0
298.1,0
297.9,0
297.7,0
297.5,0
297.3,0
297.1,0
296.9,0
296.7,0
296.5,0
296.3,0
296.1,0
295.9,0
295.7,0
295.5,0
295.3,0
295.1,0
294.9,0
294.7,0
294.5,0
294.3,0
294.1,0
293.9,0
293.7,0
293.5,0
293.3,0
293.1,0
292.9,0
292.7,0
292.5,0
292.3,0
292.1,0
291.9,0
291.7,0.000231028
291.5,0.000523049
291.3,0.000304421
291.1,0.000852542
290.9,0.001983794
290.7,0.002751729
290.5,0.00388517
290.3,0.006114306
290.1,0.0105715
289.9,0.0149588
289.7,0.025225
289.5,0.040206
289.3,0.0584125
289.1,0.0780584
288.9,0.0960437
288.7,0.108281
288.5,0.122862
288.3,0.151248
288.1,0.205237
287.9,0.26767
287.7,0.325087
287.5,0.341289
287.3,0.305911
287.1,0.232624
286.9,0.15387
286.7,0.0888721
286.5,0.0452357
286.3,0.0259718
286.1,0.0146826
285.9,0.012324
285.7,0.0160564
285.5,0.0176756
285.3,0.0207192
285.1,0.0200445
284.9,0.0175808
284.7,0.01358276
284.5,0.009544386
284.3,0.005246748
284.1,0.002550642
283.9,0.000473224
283.7,-0.000438151
283.5,0.000401053
283.3,0
283.1,0
282.9,0
282.7,0
282.5,0
282.3,0
282.1,0
281.9,0
281.7,0
281.5,0
281.3,0
281.1,0
280.9,0
280.7,0
280.5,0
280.3,0
280.1,0
279.9,0
279.7,0
279.5,0
279.3,0
279.1,0
278.9,0
278.7,0
278.5,0
278.3,0
278.1,0
277.9,0
277.7,0
277.5,0
277.3,0
277.1,0
276.9,0
276.7,0
276.5,0
276.3,0
276.1,0
275.9,0
275.7,0
275.5,0
275.3,0
275.1,0
210,0
209.8,0
209.6,0
209.4,0
209.2,0
209,0
208.8,0
208.6,0
208.4,0
208.2,0
208,0
207.8,0
207.6,0
207.4,0
207.2,0
207,0
206.8,0
206.6,0
206.4,0
206.2,0
206,0
205.8,0
205.6,0
205.4,0
205.2,0
205,0
204.8,0
204.6,0
204.4,0
204.2,0
204,0
203.8,0
203.6,0
203.4,0
203.2,0
203,0
202.8,0
202.6,0
202.4,0
202.2,0
202,0
201.8,0
201.6,0
201.4,0
201.2,0
201,0
200.8,0
200.6,0
200.4,0
200.2,0
200,0
199.8,0
199.6,0
199.4,0
199.2,0
199,0
198.8,0
198.6,0
198.4,0
198.2,0
198,0
197.8,0
197.6,0
197.4,0
197.2,0
197,0
196.8,0
196.6,0
196.4,0
196.2,0
196,0
89.9,0
89.7,0
89.5,0
89.3,0
89.1,0
88.9,0
88.7,0
88.5,0
88.3,0
88.1,0
87.9,0
87.7,0
87.5,0
87.3,0
87.1,0
86.9,0
86.7,0
86.5,0
86.3,0
86.1,0
85.9,0
85.7,0
85.5,0
85.3,0
85.1,0
84.9,0
84.7,0
84.5,0
84.3,0
84.1,0
83.9,0
83.7,0
83.5,0
83.3,0
83.1,0
82.9,0
82.7,0
82.5,0
82.3,0
82.1,0
81.9,0
81.7,0
81.5,0
81.3,0
81.1,0
80.9,0
80.7,0
80.5,0
80.3,0
80.1,0
79.9,0
79.7,0
79.5,0
79.3,0
79.1,0
78.9,0
78.7,0
78.5,0
78.3,0
78.1,0
77.9,0
77.7,0
77.5,0
77.3,0
77.1,0
76.9,0
76.7,0
76.5,0
76.3,0
76.1,0
75.9,0
75.7,0
75.5,0
75.3,0
75.1,0
74.9,0
74.7,0
74.5,0
74.3,0
74.1,0
73.9,0
73.7,0
73.5,0
73.3,0
73.1,0
72.9,0
72.7,0
72.5,0
72.3,0
72.1,0
71.9,0
71.7,0
71.5,0
71.3,0
71.1,0
70.9,0
70.7,0
70.5,0
70.3,0
70.1,0
69.9,0
69.7,0
69.5,0
69.3,0
69.1,0
68.9,0
68.7,0
68.5,0
68.3,0
68.1,0
67.9,0
67.7,0
67.5,0
67.3,0
67.1,0
66.9,0
66.7,0
66.5,0
66.3,0
66.1,0
65.9,0
65.7,0
65.5,0
65.3,0
65.1,0
64.9,0
64.7,0
64.5,0
64.3,0
64.1,0
63.9,0
63.7,0
63.5,0
63.3,0
63.1,0
62.9,0
62.7,0
62.5,0
62.3,0
62.1,0
61.9,0
61.7,0
61.5,0
61.3,0
61.1,0
60.9,0
60.7,0
60.5,0
60.3,0
60.1,0
30,0.004268572
29.8,0.005259995
29.6,0.00560021
29.4,0.006075494
29.2,0.006456964
29,0.007723387
28.8,0.008610747
28.6,0.008661867
28.4,0.009070541
28.2,0.009392175
28,0.009683923
27.8,0.009811672
27.6,0.009429701
27.4,0.009555116
27.2,0.009422016
27,0.009312783
26.8,0.008465657
26.6,0.008875736
26.4,0.008625462
26.2,0.007677564
26,0.00713918
25.8,0.006179822
25.6,0.005264317
25.4,0.004654846
25.2,0.00410471
25,0.003055485
24.8,0.002736476
24.6,0.002418289
24.4,0.001722425
24.2,0.001458475
24,0.001069493
23.8,0.000485605
23.6,2.43E-05
23.4,1.03E-05
23.2,8.45E-05
23,-0.000296507
22.8,-0.000284454
22.6,-0.000235568
22.4,0.000121422
22.2,-0.000329812
22,-4.01E-07
21.8,-0.000199556
21.6,7.50E-05
21.4,0.000371359
21.2,0.00066183
21,0.001131106
20.8,0.001492819
20.6,0.001492318
20.4,0.001660456
20.2,0.002259232
20,0.002120661
19.8,0.001725616
19.6,0.001824372
19.4,0.001663072
19.2,0.00145202
19,0.001233829
18.8,0.001029478
18.6,0.001216352
18.4,0.001341739
18.2,0.001396342
18,0.001277145
17.8,0.001632138
17.6,0.001708129
17.4,0.002144247
17.2,0.00268253
17,0.002698194
16.8,0.003282747
16.6,0.003534316
16.4,0.004236197
16.2,0.004546371
16,0.005052955
15.8,0.005200378
15.6,0.006085715
15.4,0.006552119
15.2,0.007579336
15,0.007144231
14.8,0.007133855
14.6,0.006828888
14.4,0.005794131
14.2,0.004956432
14,0.004549252
13.8,0.003929388
13.6,0.004466897
13.4,0.005386878
13.2,0.00577669
13,0.007063544
12.8,0.006930215
12.6,0.00644461
12.4,0.005219306
12.2,0.003531754
12,0.002832662
11.8,0.002060141
11.6,0.001748026
11.4,0.001889988
11.2,0.001700644
11,0.001785479
10.8,0.001560213
10.6,0.001664786
10.4,0.002036546
10.2,0.002132221
10,0.002267428
9.8,0.002442294
9.6,0.002645734
9.4,0.002110422
9.2,0.002366887
9,0.002634811
8.8,0.002776254
8.6,0.002700664
8.4,0.002716811
8.2,0.002907851
8,0.003395106
7.8,0.004017122
7.6,0.004783999
7.4,0.004936702
7.2,0.005302408
7,0.00548032
6.8,0.005441057
6.6,0.005044363
6.4,0.005246642
6.2,0.004346554
6,0.003639047
5.8,0.002888877
5.6,0.002695668
5.4,0.00227013
5.2,0.002050767
5,0.002029963
4.8,0.001467874
4.6,0.001284092
4.4,0.000894931
4.2,0.000565814
4,0.000169116
3.8,0.00018056
3.6,3.57829E-05
3.4,0.000100682
3.2,-4.49109E-05
3,-7.18657E-05
2.8,-2.61379E-05
2.6,1.50706E-06
2.4,-2.56173E-05
2.2,2.0581E-05
2,6.66507E-05
1.8,0
1.6,0
1.4,0
1.2,0
1,0
0.8,0
0.6,0
0.4,0
0.2,0
0,0
-0.2,0
-0.4,0
-0.6,0
-0.8,0
-1,0
-1.2,0
-1.4,0
-1.6,0
-1.8,0
-2,0
-2.2,0
-2.4,0
-2.6,0
-2.8,0
-3,0
-3.2,0
-3.4,0
-3.6,0
-3.8,0
-4,0
-4.2,0
-4.4,0
-4.6,0
-4.8,0
-5,0