File: genXPS/data/experimental_data/poly(methyl methacrylate) (PMMA)/PMMA.csv
Binding Energy,CPS
700,0
699.8,0
699.6,0
699.4,0
699.2,0
699,0
698.8,0
698.6,0
698.4,0
698.2,0
698,0
697.8,0
697.6,0
697.4,0
697.2,0
697,0
696.8,0
696.6,0
696.4,0
696.2,0
696,0
695.8,0
695.6,0
695.4,0
695.2,0
695,0
694.8,0
694.6,0
694.4,0
694.2,0
694,0
693.8,0
693.6,0
693.4,0
693.2,0
693,0
692.8,0
692.6,0
692.4,0
692.2,0
692,0
691.8,0
691.6,0
691.4,0
691.2,0
691,0
690.8,0
690.6,0
690.4,0
690.2,0
690,0
689.8,0
689.6,0
689.4,0
689.2,0
689,0
688.8,0
688.6,0
688.4,0
688.2,0
688,0
687.8,0
687.6,0
687.4,0
687.2,0
687,0
686.8,0
686.6,0
686.4,0
686.2,0
686,0
685.8,0
685.6,0
685.4,0
685.2,0
685,0
684.8,0
684.6,0
684.4,0
684.2,0
684,0
683.8,0
683.6,0
683.4,0
683.2,0
683,0
682.8,0
682.6,0
682.4,0
682.2,0
682,0
539.9,0
539.7,0
539.5,0
539.3,0
539.1,0
538.9,0
538.7,0
538.5,0
538.3,0
538.1,0
537.9,0
537.7,0
537.5,0
537.3,0
537.1,0
536.9,0
536.7,0
536.5,-0.000574776
536.3,0.002772465
536.1,0.009365786
535.9,0.0101789
535.7,0.0215418
535.5,0.0397019
535.3,0.0647634
535.1,0.112957
534.9,0.201225
534.7,0.320756
534.5,0.485143
534.3,0.642671
534.1,0.798207
533.9,0.886631
533.7,0.900624
533.5,0.815015
533.3,0.712549
533.1,0.661485
532.9,0.685567
532.7,0.768486
532.5,0.872318
532.3,0.911057
532.1,0.845131
531.9,0.67076
531.7,0.462471
531.5,0.275335
531.3,0.141203
531.1,0.0669857
530.9,0.0335279
530.7,0.0170017
530.5,0.003312
530.3,-0.002265638
530.1,0.000878771
529.9,0
529.7,0
529.5,0
529.3,0
529.1,0
528.9,0
528.7,0
528.5,0
528.3,0
528.1,0
527.9,0
527.7,0
527.5,0
527.3,0
527.1,0
526.9,0
526.7,0
526.5,0
526.3,0
526.1,0
525.9,0
525.7,0
525.5,0
525.3,0
525.1,0
524.9,0
524.7,0
524.5,0
524.3,0
524.1,0
523.9,0
523.7,0
523.5,0
523.3,0
523.1,0
522.9,0
522.7,0
522.5,0
522.3,0
522.1,0
521.9,0
521.7,0
521.5,0
521.3,0
521.1,0
520.9,0
520.7,0
520.5,0
520.3,0
520.1,0
410,0
409.8,0
409.6,0
409.4,0
409.2,0
409,0
408.8,0
408.6,0
408.4,0
408.2,0
408,0
407.8,0
407.6,0
407.4,0
407.2,0
407,0
406.8,0
406.6,0
406.4,0
406.2,0
406,0
405.8,0
405.6,0
405.4,0
405.2,0
405,0
404.8,0
404.6,0
404.4,0
404.2,0
404,0
403.8,0
403.6,0
403.4,0
403.2,0
403,0
402.8,0
402.6,0
402.4,0
402.2,0
402,0
401.8,0
401.6,0
401.4,0
401.2,0
401,0
400.8,0
400.6,0
400.4,0
400.2,0
400,0
399.8,0
399.6,0
399.4,0
399.2,0
399,0
398.8,0
398.6,0
398.4,0
398.2,0
398,0
397.8,0
397.6,0
397.4,0
397.2,0
397,0
396.8,0
396.6,0
396.4,0
396.2,0
396,0
395.8,0
395.6,0
395.4,0
395.2,0
395,0
394.8,0
394.6,0
394.4,0
394.2,0
394,0
393.8,0
393.6,0
393.4,0
393.2,0
393,0
392.8,0
392.6,0
392.4,0
392.2,0
392,0
299.9,0
299.7,0
299.5,0
299.3,0
299.1,0
298.9,0
298.7,0
298.5,0
298.3,0
298.1,0
297.9,0
297.7,0
297.5,0
297.3,0
297.1,0
296.9,0
296.7,0
296.5,0
296.3,0
296.1,0
295.9,0
295.7,0
295.5,0
295.3,0
295.1,0
294.9,0
294.7,0
294.5,0
294.3,0
294.1,0
293.9,0
293.7,0
293.5,0
293.3,0
293.1,0
292.9,0
292.7,0
292.5,0
292.3,0
292.1,0
291.9,0
291.7,0
291.5,0
291.3,0
291.1,0
290.9,0.000709913
290.7,0.001420587
290.5,0.006087507
290.3,0.01430653
290.1,0.0367304
289.9,0.0751923
289.7,0.150798
289.5,0.250782
289.3,0.361669
289.1,0.425331
288.9,0.388895
288.7,0.284273
288.5,0.172603
288.3,0.0953751
288.1,0.071067
287.9,0.0816457
287.7,0.128243
287.5,0.195249
287.3,0.265633
287.1,0.344464
286.9,0.390159
286.7,0.403109
286.5,0.424584
286.3,0.447691
286.1,0.530659
285.9,0.680818
285.7,0.826072
285.5,0.93142
285.3,0.991672
285.1,0.984695
284.9,0.861359
284.7,0.649103
284.5,0.413622
284.3,0.20949
284.1,0.102453
283.9,0.0418322
283.7,0.0209517
283.5,0.008482375
283.3,0.004529095
283.1,0.001588786
282.9,0
282.7,0
282.5,0
282.3,0
282.1,0
281.9,0
281.7,0
281.5,0
281.3,0
281.1,0
280.9,0
280.7,0
280.5,0
280.3,0
280.1,0
279.9,0
279.7,0
279.5,0
279.3,0
279.1,0
278.9,0
278.7,0
278.5,0
278.3,0
278.1,0
277.9,0
277.7,0
277.5,0
277.3,0
277.1,0
276.9,0
276.7,0
276.5,0
276.3,0
276.1,0
275.9,0
275.7,0
275.5,0
275.3,0
275.1,0
210,0
209.8,0
209.6,0
209.4,0
209.2,0
209,0
208.8,0
208.6,0
208.4,0
208.2,0
208,0
207.8,0
207.6,0
207.4,0
207.2,0
207,0
206.8,0
206.6,0
206.4,0
206.2,0
206,0
205.8,0
205.6,0
205.4,0
205.2,0
205,0
204.8,0
204.6,0
204.4,0
204.2,0
204,0
203.8,0
203.6,0
203.4,0
203.2,0
203,0
202.8,0
202.6,0
202.4,0
202.2,0
202,0
201.8,0
201.6,0
201.4,0
201.2,0
201,0
200.8,0
200.6,0
200.4,0
200.2,0
200,0
199.8,0
199.6,0
199.4,0
199.2,0
199,0
198.8,0
198.6,0
198.4,0
198.2,0
198,0
197.8,0
197.6,0
197.4,0
197.2,0
197,0
196.8,0
196.6,0
196.4,0
196.2,0
196,0
89.9,0
89.7,0
89.5,0
89.3,0
89.1,0
88.9,0
88.7,0
88.5,0
88.3,0
88.1,0
87.9,0
87.7,0
87.5,0
87.3,0
87.1,0
86.9,0
86.7,0
86.5,0
86.3,0
86.1,0
85.9,0
85.7,0
85.5,0
85.3,0
85.1,0
84.9,0
84.7,0
84.5,0
84.3,0
84.1,0
83.9,0
83.7,0
83.5,0
83.3,0
83.1,0
82.9,0
82.7,0
82.5,0
82.3,0
82.1,0
81.9,0
81.7,0
81.5,0
81.3,0
81.1,0
80.9,0
80.7,0
80.5,0
80.3,0
80.1,0
79.9,0
79.7,0
79.5,0
79.3,0
79.1,0
78.9,0
78.7,0
78.5,0
78.3,0
78.1,0
77.9,0
77.7,0
77.5,0
77.3,0
77.1,0
76.9,0
76.7,0
76.5,0
76.3,0
76.1,0
75.9,0
75.7,0
75.5,0
75.3,0
75.1,0
74.9,0
74.7,0
74.5,0
74.3,0
74.1,0
73.9,0
73.7,0
73.5,0
73.3,0
73.1,0
72.9,0
72.7,0
72.5,0
72.3,0
72.1,0
71.9,0
71.7,0
71.5,0
71.3,0
71.1,0
70.9,0
70.7,0
70.5,0
70.3,0
70.1,0
69.9,0
69.7,0
69.5,0
69.3,0
69.1,0
68.9,0
68.7,0
68.5,0
68.3,0
68.1,0
67.9,0
67.7,0
67.5,0
67.3,0
67.1,0
66.9,0
66.7,0
66.5,0
66.3,0
66.1,0
65.9,0
65.7,0
65.5,0
65.3,0
65.1,0
64.9,0
64.7,0
64.5,0
64.3,0
64.1,0
63.9,0
63.7,0
63.5,0
63.3,0
63.1,0
62.9,0
62.7,0
62.5,0
62.3,0
62.1,0
61.9,0
61.7,0
61.5,0
61.3,0
61.1,0
60.9,0
60.7,0
60.5,0
60.3,0
60.1,0
30,0.006163443
29.8,0.00709954
29.6,0.009083824
29.4,0.008432706
29.2,0.01175718
29,0.0119981
28.8,0.0133359
28.6,0.0132605
28.4,0.0124691
28.2,0.01220762
28,0.0135251
27.8,0.0123516
27.6,0.0125251
27.4,0.0132605
27.2,0.0124013
27,0.0136406
26.8,0.0132412
26.6,0.014033
26.4,0.0144443
26.2,0.0142276
26,0.0135985
25.8,0.0124624
25.6,0.0118241
25.4,0.01046207
25.2,0.010182
25,0.008596595
24.8,0.007174765
24.6,0.006460035
24.4,0.005348741
24.2,0.004969191
24,0.004685048
23.8,0.003633033
23.6,0.003185381
23.4,0.002787019
23.2,0.001722732
23,0.002987645
22.8,0.001331037
22.6,0.001546952
22.4,0.001307027
22.2,0.00063233
22,0.000461596
21.8,0.000673885
21.6,0.001220189
21.4,0.002532464
21.2,0.001254316
21,0.001807744
20.8,0.003074508
20.6,0.002950679
20.4,0.003464048
20.2,0.004158216
20,0.004475649
19.8,0.004770086
19.6,0.004459651
19.4,0.004606121
19.2,0.005541711
19,0.005365754
18.8,0.005619725
18.6,0.006670194
18.4,0.007446434
18.2,0.007724213
18,0.009988837
17.8,0.009138056
17.6,0.012
17.4,0.011011
17.2,0.0107618
17,0.009994998
16.8,0.0110845
16.6,0.0100669
16.4,0.009729515
16.2,0.008851936
16,0.007660549
15.8,0.007098526
15.6,0.006272212
15.4,0.005462175
15.2,0.006098232
15,0.006843692
14.8,0.007731515
14.6,0.009508935
14.4,0.00860661
14.2,0.009045387
14,0.00747587
13.8,0.005686508
13.6,0.004902206
13.4,0.005302191
13.2,0.004713039
13,0.006186642
12.8,0.006371524
12.6,0.005667822
12.4,0.005798142
12.2,0.004783219
12,0.004855605
11.8,0.004597729
11.6,0.005767337
11.4,0.008019106
11.2,0.0110264
11,0.0122044
10.8,0.01436885
10.6,0.0145292
10.4,0.0114531
10.2,0.008810865
10,0.007034768
9.8,0.005115344
9.6,0.004631201
9.4,0.003173932
9.2,0.003179689
9,0.00351756
8.8,0.003833231
8.6,0.003461322
8.4,0.004310414
8.2,0.005344852
8,0.004913516
7.8,0.005828389
7.6,0.006626296
7.4,0.006922903
7.2,0.005922024
7,0.007102747
6.8,0.006329636
6.6,0.005958871
6.4,0.005865558
6.2,0.005562407
6,0.005870781
5.8,0.006026455
5.6,0.006720803
5.4,0.006758883
5.2,0.006364959
5,0.005865003
4.8,0.005392502
4.6,0.004680274
4.4,0.003298128
4.2,0.002339431
4,0.001391549
3.8,0.000691704
3.6,0.000645801
3.4,0.000267759
3.2,-8.64751E-05
3,1.54558E-05
2.8,-5.9691E-05
2.6,9.274E-05
2.4,0
2.2,0
2,0
1.8,0
1.6,0
1.4,0
1.2,0
1,0
0.8,0
0.6,0
0.4,0
0.2,0
0,0
-0.2,0
-0.4,0
-0.6,0
-0.8,0
-1,0
-1.2,0
-1.4,0
-1.6,0
-1.8,0
-2,0
-2.2,0
-2.4,0
-2.6,0
-2.8,0
-3,0
-3.2,0
-3.4,0
-3.6,0
-3.8,0
-4,0
-4.2,0
-4.4,0
-4.6,0
-4.8,0
-5,0